File: AdiabaticProperties/HKUST-1/cyclefrom263K.txt
step T[K] H[J/g] Nco2[mmol/g] Nch4[mmol/g]
stepI 355.899 77.7791 2.66463 0.647198
stepII 353.122 75.5774 2.98049 0
stepIII 291.981 27.8406 1.16493 0
stepIV 263.0 6.09 0 0.376047

effective amount adsorbed of CO2 [mmol/g]: 2.66463
working capacity [mmol/g]: 1.4997
selectivity [-]: 4.11718
regenerability [%]: 56.2816

T[K] NcI[mmol/g] NmI[mmol/g] NtI[mmol/g] NcII[mmol/g] NcIII[mmol/g] NcIV[mmol/g] NmIV[mmol/g] HI[J/g] HII[J/g] HIII[J/g] HIV[J/g] intCp[J/g]
200 14.6846 0.3167 15.0013 14.9649 11.7143 0.0 3.24257 335.079 336.705 274.069 53.7637 -35.4181
201 14.6647 0.324735 14.9895 14.9521 11.6531 0.0 3.12838 335.103 336.65 273.147 51.8813 -34.8319
202 14.6445 0.33284 14.9773 14.9389 11.5907 0.0 3.01673 335.125 336.593 272.199 50.0275 -34.2432
203 14.6239 0.341013 14.9649 14.9254 11.527 0.0 2.90778 335.144 336.534 271.22 48.2152 -33.6521
204 14.6029 0.34925 14.9521 14.9116 11.462 0.0 2.80167 335.159 336.471 270.208 46.4473 -33.0586
205 14.5814 0.357546 14.939 14.8975 11.3957 0.0 2.69851 335.17 336.406 269.161 44.7264 -32.4626
206 14.5596 0.3659 14.9255 14.883 11.3279 0.0 2.59839 335.177 336.338 268.079 43.0543 -31.8642
207 14.5374 0.374306 14.9117 14.8681 11.2587 0.0 2.50137 335.179 336.267 266.96 41.4327 -31.2633
208 14.5147 0.382761 14.8975 14.8529 11.1881 0.0 2.4075 335.178 336.192 265.803 39.8625 -30.66
209 14.4917 0.391263 14.8829 14.8374 11.1159 0.0 2.31681 335.171 336.114 264.606 38.3446 -30.0542
210 14.4681 0.399806 14.868 14.8214 11.0421 0.0 2.22928 335.16 336.032 263.369 36.8793 -29.4461
211 14.4442 0.408387 14.8526 14.8051 10.9668 0.0 2.14492 335.143 335.946 262.088 35.4666 -28.8355
212 14.4198 0.417004 14.8368 14.7883 10.8898 0.0 2.06369 335.12 335.857 260.763 34.1062 -28.2225
213 14.3949 0.425651 14.8206 14.7712 10.8111 0.0 1.98555 335.092 335.763 259.392 32.7975 -27.6071
214 14.3696 0.434327 14.8039 14.7536 10.7306 0.0 1.91043 335.058 335.665 257.974 31.5397 -26.9892
215 14.3438 0.443026 14.7868 14.7356 10.6484 0.0 1.83829 335.017 335.563 256.506 30.3318 -26.369
216 14.3175 0.451747 14.7692 14.7171 10.5642 0.0 1.76903 334.969 335.455 254.986 29.1727 -25.7464
217 14.2907 0.460485 14.7512 14.6982 10.4782 0.0 1.70258 334.915 335.343 253.413 28.061 -25.1213
218 14.2634 0.469238 14.7326 14.6788 10.3902 0.0 1.63886 334.853 335.226 251.785 26.9954 -24.4939
219 14.2356 0.478003 14.7136 14.6589 10.3001 0.0 1.57777 334.783 335.103 250.099 25.9743 -23.8641
220 14.2072 0.486779 14.694 14.6386 10.208 0.0 1.51923 334.705 334.975 248.353 24.9963 -23.2319
221 14.1784 0.495555 14.6739 14.6177 10.1137 0.0 1.46314 334.619 334.84 246.545 24.0598 -22.5973
222 14.149 0.504337 14.6533 14.5963 10.0171 0.0 1.4094 334.524 334.7 244.673 23.1632 -21.9604
223 14.119 0.513119 14.6321 14.5744 9.91832 0.0 1.35794 334.42 334.553 242.734 22.3049 -21.3211
224 14.0884 0.5219 14.6103 14.5519 9.81714 0.0 1.30864 334.307 334.399 240.725 21.4834 -20.6795
225 14.0573 0.530678 14.588 14.5289 9.71351 0.0 1.26143 334.184 334.238 238.645 20.6972 -20.0355
226 14.0256 0.539449 14.5651 14.5053 9.60739 0.0 1.21622 334.05 334.07 236.489 19.9447 -19.3891
227 13.9933 0.548212 14.5415 14.4811 9.49868 0.0 1.17291 333.906 333.894 234.257 19.2245 -18.7404
228 13.9604 0.556966 14.5173 14.4563 9.38731 0.0 1.13143 333.751 333.71 231.944 18.5352 -18.0894
229 13.9268 0.565708 14.4925 14.4309 9.27322 0.0 1.0917 333.585 333.517 229.549 17.8753 -17.436
230 13.8926 0.574438 14.467 14.4048 9.15631 0.0 1.05363 333.406 333.316 227.067 17.2435 -16.7804
231 13.8577 0.583153 14.4409 14.3781 9.03652 0.0 1.01715 333.216 333.106 224.497 16.6386 -16.1224
232 13.8222 0.591853 14.4141 14.3507 8.91376 0.0 0.982198 333.012 332.886 221.835 16.0592 -15.4622
233 13.786 0.600537 14.3865 14.3227 8.78795 0.0 0.948692 332.795 332.655 219.079 15.5043 -14.7996
234 13.7491 0.609203 14.3583 14.2939 8.65903 0.0 0.916569 332.565 332.415 216.224 14.9727 -14.1347
235 13.7115 0.617851 14.3293 14.2644 8.52692 0.0 0.885768 332.32 332.163 213.27 14.4632 -13.4676
236 13.6731 0.626481 14.2996 14.2342 8.39156 0.0 0.856226 332.061 331.9 210.212 13.975 -12.7982
237 13.634 0.63509 14.2691 14.2031 8.25287 0.0 0.827887 331.786 331.624 207.048 13.5069 -12.1266
238 13.5941 0.643679 14.2378 14.1714 8.1108 0.0 0.800694 331.496 331.337 203.776 13.058 -11.4527
239 13.5535 0.652247 14.2058 14.1388 7.96531 0.0 0.774596 331.189 331.036 200.394 12.6275 -10.7766
240 13.5121 0.660795 14.1729 14.1054 7.81636 0.0 0.749542 330.866 330.722 196.899 12.2144 -10.0982
241 13.4698 0.66932 14.1392 14.0711 7.66392 0.0 0.725485 330.525 330.393 193.291 11.8181 -9.41762
242 13.4268 0.677823 14.1046 14.036 7.50799 0.0 0.702379 330.165 330.05 189.568 11.4376 -8.73484
243 13.3829 0.686304 14.0692 14 7.34858 0.0 0.680181 329.787 329.691 185.731 11.0723 -8.04986
244 13.3381 0.694762 14.0328 13.9631 7.18573 0.0 0.65885 329.39 329.316 181.779 10.7214 -7.3627
245 13.2924 0.703197 13.9956 13.9253 7.01952 0.0 0.638346 328.972 328.924 177.714 10.3844 -6.67337
246 13.2459 0.711608 13.9575 13.8865 6.85003 0.0 0.618634 328.534 328.514 173.539 10.0605 -5.98188
247 13.1984 0.719995 13.9184 13.8467 6.67741 0.0 0.599676 328.075 328.086 169.257 9.7492 -5.28824
248 13.15 0.728358 13.8783 13.8059 6.50185 0.0 0.581441 327.593 327.64 164.873 9.44991 -4.59247
249 13.1006 0.736695 13.8373 13.7641 6.32357 0.0 0.563895 327.088 327.173 160.393 9.16208 -3.89458
250 13.0502 0.745007 13.7952 13.7213 6.14286 0.0 0.547008 326.56 326.685 155.827 8.88521 -3.19458
251 12.9989 0.753292 13.7522 13.6774 5.96006 0.0 0.530752 326.008 326.176 151.183 8.61879 -2.49249
252 12.9465 0.76155 13.7081 13.6323 5.77557 0.0 0.515098 325.43 325.645 146.473 8.36238 -1.78832
253 12.8931 0.76978 13.6629 13.5862 5.58984 0.0 0.500022 324.826 325.09 141.711 8.11553 -1.08209
254 12.8387 0.77798 13.6167 13.5388 5.4034 0.0 0.485497 324.195 324.511 136.912 7.87782 -0.373819
255 12.7832 0.78615 13.5693 13.4903 5.21681 0.0 0.4715 323.537 323.907 132.092 7.64884 0.336488
256 12.7265 0.794287 13.5208 13.4406 5.03067 0.0 0.458009 322.849 323.276 127.271 7.42824 1.04881
257 12.6688 0.802392 13.4712 13.3897 4.84564 0.0 0.445002 322.133 322.618 122.467 7.21563 1.76313
258 12.6099 0.81046 13.4204 13.3374 4.66236 0.0 0.432459 321.386 321.931 117.699 7.01069 2.47943
259 12.5498 0.818492 13.3683 13.2839 4.48151 0.0 0.420359 320.607 321.215 112.986 6.81308 3.19769
260 12.4886 0.826484 13.3151 13.229 4.30371 0.0 0.408686 319.796 320.469 108.349 6.62249 3.9179
261 12.4262 0.834434 13.2606 13.1728 4.12957 0.0 0.39742 318.952 319.69 103.805 6.43864 4.64003
262 12.3625 0.84234 13.2048 13.1152 3.95966 0.0 0.386546 318.073 318.879 99.3702 6.26123 5.36407
263 12.2976 0.850198 13.1478 13.0561 3.79445 0.0 0.376047 317.159 318.033 95.0589 6.09 6.09
264 12.2314 0.858005 13.0894 12.9956 3.63436 0.0 0.365908 316.209 317.151 90.8835 5.9247 6.81779
265 12.1639 0.865758 13.0297 12.9336 3.47972 0.0 0.356114 315.221 316.232 86.8535 5.76507 7.54744
266 12.0951 0.873453 12.9686 12.87 3.33077 0.0 0.346651 314.194 315.276 82.9764 5.6109 8.2789
267 12.025 0.881086 12.9061 12.8049 3.18768 0.0 0.337506 313.128 314.279 79.2569 5.46196 9.01218
268 11.9535 0.888653 12.8422 12.7382 3.05053 0.0 0.328667 312.021 313.241 75.6977 5.31803 9.74723
269 11.8807 0.896148 12.7768 12.6698 2.91935 0.0 0.320121 310.872 312.161 72.2992 5.17892 10.484
270 11.8064 0.903567 12.71 12.5998 2.79408 0.0 0.311857 309.68 311.037 69.0603 5.04444 11.2226
271 11.7307 0.910904 12.6416 12.5281 2.67463 0.0 0.303864 308.444 309.867 65.9784 4.9144 11.9629
272 11.6536 0.918153 12.5717 12.4546 2.56085 0.0 0.296131 307.162 308.65 63.0494 4.78863 12.7048
273 11.575 0.925309 12.5003 12.3794 2.45259 0.0 0.288648 305.833 307.384 60.2686 4.66696 13.4484
274 11.4949 0.932364 12.4272 12.3023 2.34965 0.0 0.281406 304.457 306.067 57.6306 4.54923 14.1937
275 11.4132 0.939311 12.3526 12.2233 2.25181 0.0 0.274395 303.032 304.699 55.1293 4.43529 14.9405
276 11.3301 0.946143 12.2762 12.1425 2.15885 0.0 0.267606 301.556 303.276 52.7586 4.325 15.689
277 11.2454 0.952852 12.1983 12.0597 2.07054 0.0 0.261032 300.028 301.798 50.5121 4.21821 16.439
278 11.1577 0.960782 12.1185 11.9749 1.98667 0.0 0.254664 298.446 300.263 48.3833 4.1148 17.1905
279 11.0712 0.965867 12.0371 11.8881 1.90699 0.0 0.248495 296.813 298.669 46.366 4.01463 17.9435
280 10.9818 0.972155 11.9539 11.7993 1.8313 0.0 0.242516 295.125 297.013 44.4541 3.91758 18.6981
281 10.8906 0.978284 11.8689 11.7083 1.75937 0.0 0.236722 293.379 295.295 42.6415 3.82354 19.454
282 10.7978 0.984244 11.7821 11.6152 1.691 0.0 0.231105 291.576 293.513 40.9226 3.7324 20.2114
283 10.7034 0.990024 11.6934 11.5199 1.62599 0.0 0.225658 289.713 291.664 39.292 3.64405 20.9701
284 10.6072 0.995614 11.6028 11.4224 1.56415 0.0 0.220377 287.79 289.747 37.7443 3.55838 21.7302
285 10.5093 1.001 11.5103 11.3226 1.5053 0.0 0.215254 285.806 287.759 36.2748 3.4753 22.4916
286 10.4097 1.00617 11.4159 11.2205 1.44928 0.0 0.210284 283.759 285.7 34.8788 3.39472 23.2543
287 10.3084 1.01112 11.3195 11.1161 1.39592 0.0 0.205461 281.648 283.567 33.5519 3.31655 24.0183
288 10.2052 1.01583 11.2211 11.0094 1.34507 0.0 0.200781 279.473 281.359 32.2901 3.2407 24.7834
289 10.1004 1.02029 11.1206 10.9002 1.2966 0.0 0.196238 277.231 279.074 31.0895 3.16708 25.5498
290 9.99369 1.02448 11.0182 10.7887 1.25036 0.0 0.191828 274.923 276.71 29.9466 3.09562 26.3173
291 9.88523 1.02839 10.9136 10.6746 1.20624 0.0 0.187545 272.547 274.266 28.858 3.02625 27.0859
292 9.77499 1.03201 10.807 10.5582 1.16411 0.0 0.183386 270.102 271.74 27.8205 2.95889 27.8556
293 9.66294 1.03532 10.6983 10.4392 1.12387 0.0 0.179346 267.588 269.132 26.8312 2.89346 28.6263
294 9.5491 1.03832 10.5874 10.3178 1.08542 0.0 0.175421 265.004 266.439 25.8874 2.82991 29.398
295 9.43347 1.04098 10.4744 10.1938 1.04864 0.0 0.171607 262.349 263.662 24.9865 2.76817 30.1707
296 9.31606 1.04329 10.3593 10.0674 1.01347 0.0 0.167901 259.624 260.799 24.126 2.70818 30.9442
297 9.19689 1.04523 10.2421 9.93851 0.979803 0.0 0.164298 256.827 257.849 23.3039 2.64987 31.7187
298 9.07597 1.0468 10.1228 9.80719 0.947568 0.0 0.160796 253.959 254.814 22.5178 2.59319 32.494
299 8.95334 1.04799 10.0013 9.67345 0.916689 0.0 0.15739 251.021 251.693 21.7659 2.53809 33.2701
300 8.82902 1.04877 9.87779 9.53736 0.887096 0.0 0.154078 248.012 248.486 21.0464 2.48451 34.0472
301 8.70307 1.04913 9.7522 9.39896 0.858723 0.0 0.150857 244.934 245.195 20.3575 2.43241 34.825
302 8.57552 1.04907 9.6246 9.25834 0.831508 0.0 0.147724 241.786 241.82 19.6976 2.38173 35.6026
303 8.44645 1.04858 9.49503 9.11559 0.805392 0.0 0.144675 238.572 238.365 19.0652 2.33242 36.3802
304 8.31592 1.04764 9.36356 8.9708 0.780322 0.0 0.141708 235.292 234.83 18.4588 2.28445 37.1578
305 8.18401 1.04625 9.23026 8.8241 0.756245 0.0 0.13882 231.949 231.22 17.8772 2.23777 37.9355
306 8.0508 1.0444 9.09521 8.67564 0.733113 0.0 0.13601 228.544 227.538 17.3191 2.19233 38.7133
307 7.91642 1.04209 8.95851 8.52556 0.71088 0.0 0.133274 225.082 223.787 16.7834 2.1481 39.4911
308 7.78096 1.03932 8.82028 8.37404 0.689504 0.0 0.130609 221.565 219.973 16.2688 2.10504 40.2691
309 7.64456 1.03608 8.68064 8.22127 0.668944 0.0 0.128015 217.996 216.101 15.7744 2.06311 41.0473
310 7.50734 1.03238 8.53972 8.06745 0.649162 0.0 0.125488 214.381 212.176 15.2992 2.02227 41.8255
311 7.36947 1.02822 8.39769 7.91281 0.630121 0.0 0.123026 210.723 208.206 14.8423 1.9825 42.604
312 7.2311 1.0236 8.2547 7.75758 0.611788 0.0 0.120627 207.027 204.196 14.4028 1.94375 43.3826
313 7.0924 1.01854 8.11094 7.60199 0.59413 0.0 0.11829 203.3 200.155 13.9799 1.906 44.1614
314 6.95354 1.01305 7.96659 7.44631 0.577117 0.0 0.116013 199.546 196.09 13.5729 1.86921 44.9404
315 6.81471 1.00714 7.82184 7.2908 0.56072 0.0 0.113793 195.772 192.009 13.1809 1.83335 45.7195
316 6.6761 1.00082 7.67691 7.1357 0.544912 0.0 0.111629 191.984 187.92 12.8033 1.79841 46.4989
317 6.5379 0.99411 7.53201 6.98128 0.529667 0.0 0.109519 188.188 183.831 12.4395 1.76434 47.2784
318 6.4003 0.987035 7.38734 6.82779 0.51496 0.0 0.107462 184.39 179.751 12.0888 1.73112 48.058
319 6.26351 0.979612 7.24312 6.67549 0.500769 0.0 0.105456 180.599 175.688 11.7507 1.69873 48.8379
320 6.1277 0.971865 7.09957 6.52462 0.487071 0.0 0.103499 176.819 171.649 11.4246 1.66714 49.6179
321 5.99307 0.963816 6.95689 6.3754 0.473845 0.0 0.10159 173.057 167.642 11.11 1.63632 50.398
322 5.8598 0.955491 6.81529 6.22804 0.461072 0.0 0.099728 169.32 163.674 10.8063 1.60626 51.1783
323 5.72806 0.946914 6.67497 6.08274 0.448733 0.0 0.0979109 165.614 159.753 10.5132 1.57693 51.9588
324 5.598 0.93811 6.53611 5.93968 0.43681 0.0 0.0961377 161.944 155.883 10.2302 1.54832 52.7394
325 5.46978 0.929106 6.39889 5.79902 0.425286 0.0 0.094407 158.316 152.072 9.95676 1.52039 53.5201
326 5.34353 0.919927 6.26346 5.6609 0.414145 0.0 0.0927177 154.734 148.323 9.69262 1.49312 54.301
327 5.21937 0.910597 6.12997 5.52545 0.40337 0.0 0.0910684 151.205 144.641 9.43735 1.46651 55.082
328 5.09742 0.90114 5.99856 5.39275 0.392949 0.0 0.0894582 147.73 141.031 9.19058 1.44053 55.8631
329 4.97777 0.891579 5.86935 5.26289 0.382866 0.0 0.0878858 144.315 137.494 8.95198 1.41516 56.6444
330 4.86049 0.881937 5.74242 5.13595 0.373109 0.0 0.0863502 140.962 134.035 8.72121 1.39039 57.4259
331 4.74565 0.872234 5.61789 5.01195 0.363664 0.0 0.0848503 137.674 130.654 8.49797 1.3662 58.2075
332 4.63331 0.862491 5.4958 4.89094 0.35452 0.0 0.0833852 134.453 127.354 8.28194 1.34256 58.9892
333 4.5235 0.852726 5.37622 4.77292 0.345665 0.0 0.0819538 131.301 124.135 8.07286 1.31948 59.7711
334 4.41624 0.842955 5.2592 4.65791 0.337088 0.0 0.0805552 128.22 120.998 7.87044 1.29692 60.5532
335 4.31157 0.833195 5.14476 4.54589 0.328779 0.0 0.0791885 125.21 117.943 7.67444 1.27488 61.3355
336 4.20946 0.82346 5.03292 4.43683 0.320727 0.0 0.0778528 122.272 114.971 7.4846 1.25334 62.118
337 4.10993 0.813762 4.9237 4.33072 0.312923 0.0 0.0765472 119.407 112.079 7.30069 1.23228 62.9007
338 4.01296 0.804114 4.81707 4.22751 0.305358 0.0 0.075271 116.614 109.269 7.12249 1.2117 63.6837
339 3.91852 0.794527 4.71305 4.12715 0.298022 0.0 0.0740233 113.893 106.538 6.94978 1.19159 64.467
340 3.82659 0.785009 4.6116 4.02961 0.290908 0.0 0.0728033 111.243 103.886 6.78236 1.17192 65.2505
341 3.73713 0.775569 4.5127 3.93481 0.284008 0.0 0.0716103 108.665 101.311 6.62003 1.15268 66.0344
342 3.65011 0.766214 4.41632 3.8427 0.277313 0.0 0.0704436 106.137 98.8114 6.4626 1.13387 66.8186
343 3.55894 0.762991 4.32193 3.75323 0.270816 0.0 0.0693025 103.679 96.3857 6.30991 1.11548 67.6033
344 3.48326 0.74771 4.23097 3.66631 0.264511 0.0 0.0681862 101.326 94.0322 6.16177 1.09748 68.3883
345 3.40318 0.738718 4.14189 3.5819 0.258391 0.0 0.0670941 99.0381 91.7491 6.01802 1.07988 69.1739
346 3.32541 0.729758 4.05517 3.49991 0.252449 0.0 0.0660256 96.7967 89.5344 5.8785 1.06266 69.9599
347 3.24983 0.720907 3.97074 3.42029 0.246678 0.0 0.0649801 94.6188 87.3863 5.74307 1.04581 70.7465
348 3.17638 0.712167 3.88855 3.34297 0.241074 0.0 0.0639569 92.5028 85.3029 5.61158 1.02932 71.5337
349 3.10501 0.70354 3.80855 3.26787 0.23563 0.0 0.0629554 90.4471 83.2823 5.48389 1.01318 72.3216
350 3.03565 0.695029 3.73068 3.19493 0.23034 0.0 0.0619752 88.45 81.3225 5.35987 0.997382 73.1102
351 2.96825 0.686633 3.65488 3.12409 0.2252 0.0 0.0610156 86.51 79.4217 5.2394 0.981919 73.8995
352 2.90276 0.678354 3.58111 3.05528 0.220204 0.0 0.0600762 84.6254 77.5779 5.12235 0.96678 74.6896
353 2.83911 0.670192 3.50931 2.98843 0.215348 0.0 0.0591563 82.7947 75.7894 5.0086 0.951959 75.4806
354 2.77726 0.662147 3.43941 2.92348 0.210627 0.0 0.0582555 81.0162 74.0544 4.89804 0.937445 76.2725
355 2.71715 0.65422 3.37137 2.86037 0.206036 0.0 0.0573734 79.2883 72.3711 4.79057 0.923232 77.0653
356 2.65873 0.646409 3.30514 2.79905 0.201571 0.0 0.0565094 77.6095 70.7377 4.68608 0.909312 77.8593
357 2.60194 0.638715 3.24065 2.73945 0.197229 0.0 0.0556631 75.9783 69.1526 4.58448 0.895678 78.6543
358 2.54673 0.631135 3.17786 2.68151 0.193004 0.0 0.054834 74.3931 67.6141 4.48566 0.882321 79.4505
359 2.49305 0.62367 3.11672 2.62519 0.188893 0.0 0.0540218 72.8526 66.1208 4.38953 0.869236 80.2479
360 2.44085 0.616319 3.05717 2.57043 0.184893 0.0 0.0532259 71.3551 64.6709 4.29601 0.856416 81.0467
361 2.3901 0.609079 2.99918 2.51717 0.181 0.0 0.0524461 69.8995 63.2631 4.20502 0.843854 81.8467
362 2.34073 0.601951 2.94268 2.46538 0.17721 0.0 0.0516818 68.4842 61.8959 4.11646 0.831543 82.6482
363 2.29271 0.594932 2.88764 2.41499 0.17352 0.0 0.0509327 67.108 60.568 4.03027 0.819478 83.4512
364 2.24599 0.588021 2.83401 2.36597 0.169928 0.0 0.0501985 65.7696 59.2779 3.94636 0.807652 84.2558
365 2.20053 0.581216 2.78175 2.31826 0.166429 0.0 0.0494788 64.4678 58.0243 3.86467 0.79606 85.062
366 2.15629 0.574517 2.73081 2.27184 0.163022 0.0 0.0487731 63.2014 56.8061 3.78512 0.784695 85.8698
367 2.11323 0.56792 2.68115 2.22664 0.159702 0.0 0.0480813 61.9691 55.622 3.70765 0.773554 86.6794
368 2.07132 0.561426 2.63274 2.18264 0.156469 0.0 0.0474029 60.77 54.4709 3.63219 0.762629 87.4908
369 2.03051 0.555033 2.58554 2.1398 0.153318 0.0 0.0467377 59.6028 53.3516 3.55868 0.751916 88.3041
370 1.99076 0.548737 2.5395 2.09807 0.150247 0.0 0.0460853 58.4666 52.263 3.48705 0.741409 89.1192
371 1.95206 0.542539 2.4946 2.05742 0.147254 0.0 0.0454454 57.3604 51.2042 3.41726 0.731105 89.9363
372 1.91436 0.536437 2.45079 2.01782 0.144337 0.0 0.0448177 56.283 50.1741 3.34924 0.720997 90.7555
373 1.87763 0.530428 2.40806 1.97924 0.141493 0.0 0.0442019 55.2338 49.1718 3.28294 0.711083 91.5767
374 1.84184 0.524511 2.36635 1.94163 0.13872 0.0 0.0435978 54.2116 48.1962 3.21831 0.701356 92.4
375 1.80696 0.518685 2.32564 1.90498 0.136017 0.0 0.0430051 53.2157 47.2467 3.1553 0.691812 93.2255
376 1.77296 0.512948 2.28591 1.86924 0.133379 0.0 0.0424235 52.2451 46.3222 3.09385 0.682448 94.0531
377 1.73982 0.507298 2.24711 1.8344 0.130807 0.0 0.0418528 51.2992 45.422 3.03393 0.673259 94.883
378 1.7075 0.501734 2.20923 1.80042 0.128298 0.0 0.0412926 50.377 44.5452 2.97549 0.664241 95.715
379 1.67598 0.496255 2.17224 1.76727 0.12585 0.0 0.0407429 49.4779 43.6911 2.91848 0.65539 96.5494
380 1.64525 0.490858 2.13611 1.73494 0.123461 0.0 0.0402032 48.6011 42.8591 2.86286 0.646702 97.386
381 1.61526 0.485543 2.10081 1.7034 0.12113 0.0 0.0396735 47.746 42.0483 2.80859 0.638174 98.2248
382 1.58601 0.480307 2.06632 1.67261 0.118856 0.0 0.0391534 46.9118 41.258 2.75563 0.629802 99.0659
383 1.55746 0.47515 2.03261 1.64257 0.116635 0.0 0.0386428 46.0978 40.4877 2.70395 0.621582 99.9093
384 1.52961 0.47007 1.99968 1.61324 0.114467 0.0 0.0381415 45.3035 39.7367 2.65351 0.613511 100.755
385 1.50241 0.465065 1.96748 1.58461 0.112351 0.0 0.0376491 44.5283 39.0044 2.60426 0.605586 101.603
386 1.47587 0.460135 1.936 1.55665 0.110284 0.0 0.0371656 43.7716 38.2902 2.55619 0.597803 102.453
387 1.44995 0.455277 1.90522 1.52934 0.108266 0.0 0.0366908 43.0328 37.5936 2.50924 0.59016 103.305
388 1.42463 0.450491 1.87513 1.50268 0.106295 0.0 0.0362244 42.3113 36.9139 2.4634 0.582652 104.159
389 1.39991 0.445775 1.84569 1.47663 0.10437 0.0 0.0357662 41.6067 36.2508 2.41863 0.575278 105.015
390 1.37576 0.441128 1.81689 1.45117 0.102489 0.0 0.0353161 40.9185 35.6036 2.3749 0.568034 105.873
391 1.35217 0.436549 1.78872 1.4263 0.100652 0.0 0.034874 40.2461 34.9719 2.33219 0.560917 106.733
392 1.32912 0.432036 1.76116 1.402 0.0988566 0.0 0.0344396 39.5891 34.3553 2.29045 0.553925 107.595
393 1.30659 0.427588 1.73418 1.37824 0.0971023 0.0 0.0340127 38.9471 33.7532 2.24968 0.547055 108.458
394 1.28458 0.423205 1.70778 1.35502 0.0953878 0.0 0.0335932 38.3196 33.1653 2.20983 0.540304 109.323
395 1.26305 0.418884 1.68194 1.33232 0.0937121 0.0 0.033181 37.7061 32.5911 2.17089 0.53367 110.189
396 1.24201 0.414625 1.65664 1.31012 0.0920741 0.0 0.0327758 37.1064 32.0302 2.13283 0.52715 111.056
397 1.22144 0.410427 1.63187 1.28841 0.0904727 0.0 0.0323776 36.5199 31.4823 2.09562 0.520741 111.924
398 1.20132 0.406288 1.60761 1.26717 0.0889071 0.0 0.0319862 35.9464 30.9469 2.05925 0.514442 112.793
399 1.18165 0.402208 1.58386 1.2464 0.0873762 0.0 0.0316014 35.3854 30.4238 2.02369 0.50825 113.663
400 1.1624 0.398186 1.56059 1.22608 0.0858791 0.0 0.0312232 34.8366 29.9124 1.98892 0.502163 114.533