File: AdiabaticProperties/HKUST-1/cyclefrom263K_columnB1_caseI.txt
step T[K] H[J/g] Nco2[mmol/g] Nch4[mmol/g]
stepI 322.725 51.6099 0.531505 2.28379
stepII 353.175 75.4854 2.97704 0
stepIII 292.056 27.7649 1.16185 0
stepIV 263.15 6.0652 0 0.374526

effective amount adsorbed of CO2 [mmol/g]: 0.531505
working capacity [mmol/g]: -0.630348
selectivity [-]: 5.34889
regenerability [%]: -118.597

T[K] NcI[mmol/g] NmI[mmol/g] NtI[mmol/g] NcII[mmol/g] NcIII[mmol/g] NcIV[mmol/g] NmIV[mmol/g] HI[J/g] HII[J/g] HIII[J/g] HIV[J/g] intCp[J/g]
200 8.74777 3.98487 12.7326 14.9649 11.7143 0.0 3.24257 286.988 336.705 274.069 53.7637 -35.552
201 8.64797 4.04966 12.6976 14.9521 11.6531 0.0 3.12838 285.881 336.65 273.147 51.8813 -34.9658
202 8.54823 4.11372 12.662 14.9389 11.5907 0.0 3.01673 284.747 336.593 272.199 50.0275 -34.3772
203 8.44858 4.17702 12.6256 14.9254 11.527 0.0 2.90778 283.584 336.534 271.22 48.2152 -33.7861
204 8.34905 4.2395 12.5886 14.9116 11.462 0.0 2.80167 282.391 336.471 270.208 46.4473 -33.1926
205 8.24965 4.30114 12.5508 14.8975 11.3957 0.0 2.69851 281.169 336.406 269.161 44.7264 -32.5966
206 8.15041 4.36187 12.5123 14.883 11.3279 0.0 2.59839 279.918 336.338 268.079 43.0543 -31.9981
207 8.05134 4.42168 12.473 14.8681 11.2587 0.0 2.50137 278.638 336.267 266.96 41.4327 -31.3973
208 7.95248 4.4805 12.433 14.8529 11.1881 0.0 2.4075 277.33 336.192 265.803 39.8625 -30.7939
209 7.85383 4.53831 12.3921 14.8374 11.1159 0.0 2.31681 275.995 336.114 264.606 38.3446 -30.1882
210 7.75541 4.59507 12.3505 14.8214 11.0421 0.0 2.22928 274.631 336.032 263.369 36.8793 -29.58
211 7.65725 4.65073 12.308 14.8051 10.9668 0.0 2.14492 273.24 335.946 262.088 35.4666 -28.9695
212 7.55935 4.70526 12.2646 14.7883 10.8898 0.0 2.06369 271.822 335.857 260.763 34.1062 -28.3564
213 7.46173 4.75863 12.2204 14.7712 10.8111 0.0 1.98555 270.378 335.763 259.392 32.7975 -27.741
214 7.3644 4.8108 12.1752 14.7536 10.7306 0.0 1.91043 268.907 335.665 257.974 31.5397 -27.1232
215 7.26739 4.86173 12.1291 14.7356 10.6484 0.0 1.83829 267.41 335.563 256.506 30.3318 -26.503
216 7.17068 4.9114 12.0821 14.7171 10.5642 0.0 1.76903 265.887 335.455 254.986 29.1727 -25.8803
217 7.07431 4.95976 12.0341 14.6982 10.4782 0.0 1.70258 264.338 335.343 253.413 28.061 -25.2553
218 6.97828 5.00679 11.9851 14.6788 10.3902 0.0 1.63886 262.765 335.226 251.785 26.9954 -24.6279
219 6.88259 5.05246 11.9351 14.6589 10.3001 0.0 1.57777 261.166 335.103 250.099 25.9743 -23.9981
220 6.78726 5.09673 11.884 14.6386 10.208 0.0 1.51923 259.543 334.975 248.353 24.9963 -23.3659
221 6.6923 5.13958 11.8319 14.6177 10.1137 0.0 1.46314 257.895 334.84 246.545 24.0598 -22.7313
222 6.5977 5.18097 11.7787 14.5963 10.0171 0.0 1.4094 256.223 334.7 244.673 23.1632 -22.0944
223 6.50349 5.22088 11.7244 14.5744 9.91832 0.0 1.35794 254.527 334.553 242.734 22.3049 -21.4551
224 6.40965 5.25928 11.6689 14.5519 9.81714 0.0 1.30864 252.808 334.399 240.725 21.4834 -20.8134
225 6.31621 5.29615 11.6124 14.5289 9.71351 0.0 1.26143 251.065 334.238 238.645 20.6972 -20.1694
226 6.22316 5.33145 11.5546 14.5053 9.60739 0.0 1.21622 249.299 334.07 236.489 19.9447 -19.5231
227 6.1305 5.36517 11.4957 14.4811 9.49868 0.0 1.17291 247.509 333.894 234.257 19.2245 -18.8744
228 6.03825 5.39727 11.4355 14.4563 9.38731 0.0 1.13143 245.697 333.71 231.944 18.5352 -18.2234
229 5.94639 5.42773 11.3741 14.4309 9.27322 0.0 1.0917 243.862 333.517 229.549 17.8753 -17.57
230 5.85495 5.45652 11.3115 14.4048 9.15631 0.0 1.05363 242.004 333.316 227.067 17.2435 -16.9144
231 5.76391 5.48364 11.2475 14.3781 9.03652 0.0 1.01715 240.123 333.106 224.497 16.6386 -16.2564
232 5.67328 5.50904 11.1823 14.3507 8.91376 0.0 0.982198 238.221 332.886 221.835 16.0592 -15.5961
233 5.58307 5.53271 11.1158 14.3227 8.78795 0.0 0.948692 236.295 332.655 219.079 15.5043 -14.9336
234 5.49327 5.55462 11.0479 14.2939 8.65903 0.0 0.916569 234.348 332.415 216.224 14.9727 -14.2687
235 5.40388 5.57476 10.9786 14.2644 8.52692 0.0 0.885768 232.379 332.163 213.27 14.4632 -13.6016
236 5.31492 5.59309 10.908 14.2342 8.39156 0.0 0.856226 230.387 331.9 210.212 13.975 -12.9322
237 5.22637 5.60961 10.836 14.2031 8.25287 0.0 0.827887 228.373 331.624 207.048 13.5069 -12.2605
238 5.13824 5.62429 10.7625 14.1714 8.1108 0.0 0.800694 226.337 331.337 203.776 13.058 -11.5867
239 5.05053 5.6371 10.6876 14.1388 7.96531 0.0 0.774596 224.28 331.036 200.394 12.6275 -10.9105
240 4.96325 5.64804 10.6113 14.1054 7.81636 0.0 0.749542 222.2 330.722 196.899 12.2144 -10.2322
241 4.87639 5.65707 10.5335 14.0711 7.66392 0.0 0.725485 220.098 330.393 193.291 11.8181 -9.55159
242 4.78995 5.66419 10.4541 14.036 7.50799 0.0 0.702379 217.975 330.05 189.568 11.4376 -8.8688
243 4.70395 5.66936 10.3733 14 7.34858 0.0 0.680181 215.829 329.691 185.731 11.0723 -8.18383
244 4.61838 5.67258 10.291 13.9631 7.18573 0.0 0.65885 213.662 329.316 181.779 10.7214 -7.49667
245 4.53324 5.67383 10.2071 13.9253 7.01952 0.0 0.638346 211.472 328.924 177.714 10.3844 -6.80733
246 4.44855 5.67309 10.1216 13.8865 6.85003 0.0 0.618634 209.261 328.514 173.539 10.0605 -6.11584
247 4.36429 5.67035 10.0346 13.8467 6.67741 0.0 0.599676 207.028 328.086 169.257 9.7492 -5.4222
248 4.28049 5.66559 9.94608 13.8059 6.50185 0.0 0.581441 204.773 327.64 164.873 9.44991 -4.72643
249 4.19714 5.6588 9.85594 13.7641 6.32357 0.0 0.563895 202.379 327.173 160.393 9.16208 -4.02854
250 4.07348 5.68688 9.76036 13.7213 6.14286 0.0 0.547008 199.963 326.685 155.827 8.88521 -3.32854
251 4.03184 5.63908 9.67091 13.6774 5.96006 0.0 0.530752 197.761 326.176 151.183 8.61879 -2.62645
252 3.9499 5.62613 9.57603 13.6323 5.77557 0.0 0.515098 195.538 325.645 146.473 8.36238 -1.92229
253 3.86845 5.61111 9.47956 13.5862 5.58984 0.0 0.500022 193.177 325.09 141.711 8.11553 -1.21606
254 3.78751 5.59402 9.38153 13.5388 5.4034 0.0 0.485497 190.795 324.511 136.912 7.87782 -0.507784
255 3.70708 5.57486 9.28194 13.4903 5.21681 0.0 0.4715 188.392 323.907 132.092 7.64884 0.202523
256 3.62718 5.55363 9.18081 13.4406 5.03067 0.0 0.458009 185.97 323.276 127.271 7.42824 0.914844
257 3.54783 5.53033 9.07816 13.3897 4.84564 0.0 0.445002 183.528 322.618 122.467 7.21563 1.62916
258 3.46904 5.50497 8.97401 13.3374 4.66236 0.0 0.432459 181.068 321.931 117.699 7.01069 2.34546
259 3.39083 5.47757 8.8684 13.2839 4.48151 0.0 0.420359 178.59 321.215 112.986 6.81308 3.06372
260 3.31323 5.44812 8.76135 13.229 4.30371 0.0 0.408686 176.094 320.469 108.349 6.62249 3.78393
261 3.23626 5.41667 8.65293 13.1728 4.12957 0.0 0.39742 173.582 319.69 103.805 6.43864 4.50607
262 3.15994 5.38322 8.54316 13.1152 3.95966 0.0 0.386546 171.055 318.879 99.3702 6.26123 5.23011
263 3.08431 5.34781 8.43212 13.0561 3.79445 0.0 0.376047 168.513 318.033 95.0589 6.09 5.95603
264 3.00938 5.31048 8.31986 12.9956 3.63436 0.0 0.365908 165.958 317.151 90.8835 5.9247 6.68383
265 2.9352 5.27125 8.20645 12.9336 3.47972 0.0 0.356114 163.392 316.232 86.8535 5.76507 7.41347
266 2.86178 5.23018 8.09197 12.87 3.33077 0.0 0.346651 160.816 315.276 82.9764 5.6109 8.14494
267 2.78917 5.18732 7.9765 12.8049 3.18768 0.0 0.337506 158.231 314.279 79.2569 5.46196 8.87821
268 2.71741 5.14272 7.86013 12.7382 3.05053 0.0 0.328667 155.64 313.241 75.6977 5.31803 9.61327
269 2.64652 5.09645 7.74297 12.6698 2.91935 0.0 0.320121 153.043 312.161 72.2992 5.17892 10.3501
270 2.57654 5.04857 7.62511 12.5998 2.79408 0.0 0.311857 150.444 311.037 69.0603 5.04444 11.0886
271 2.50752 4.99915 7.50667 12.5281 2.67463 0.0 0.303864 147.844 309.867 65.9784 4.9144 11.8289
272 2.43948 4.94828 7.38776 12.4546 2.56085 0.0 0.296131 145.246 308.65 63.0494 4.78863 12.5708
273 2.37247 4.89603 7.2685 12.3794 2.45259 0.0 0.288648 142.651 307.384 60.2686 4.66696 13.3145
274 2.30652 4.84249 7.14902 12.3023 2.34965 0.0 0.281406 140.062 306.067 57.6306 4.54923 14.0597
275 2.24168 4.78776 7.02944 12.2233 2.25181 0.0 0.274395 137.482 304.699 55.1293 4.43529 14.8066
276 2.17797 4.73193 6.90989 12.1425 2.15885 0.0 0.267606 134.913 303.276 52.7586 4.325 15.555
277 2.11542 4.67509 6.79052 12.0597 2.07054 0.0 0.261032 132.357 301.798 50.5121 4.21821 16.305
278 2.05408 4.61736 6.67144 11.9749 1.98667 0.0 0.254664 129.817 300.263 48.3833 4.1148 17.0565
279 1.99397 4.55882 6.55279 11.8881 1.90699 0.0 0.248495 127.295 298.669 46.366 4.01463 17.8096
280 1.93511 4.49959 6.4347 11.7993 1.8313 0.0 0.242516 124.793 297.013 44.4541 3.91758 18.5641
281 1.87754 4.43976 6.31729 11.7083 1.75937 0.0 0.236722 122.315 295.295 42.6415 3.82354 19.32
282 1.82127 4.37944 6.2007 11.6152 1.691 0.0 0.231105 119.861 293.513 40.9226 3.7324 20.0774
283 1.76632 4.31873 6.08505 11.5199 1.62599 0.0 0.225658 117.435 291.664 39.292 3.64405 20.8362
284 1.71271 4.25773 5.97044 11.4224 1.56415 0.0 0.220377 115.038 289.747 37.7443 3.55838 21.5962
285 1.66045 4.19654 5.85698 11.3226 1.5053 0.0 0.215254 112.672 287.759 36.2748 3.4753 22.3577
286 1.60954 4.13525 5.74479 11.2205 1.44928 0.0 0.210284 110.339 285.7 34.8788 3.39472 23.1204
287 1.55999 4.07396 5.63395 11.1161 1.39592 0.0 0.205461 108.041 283.567 33.5519 3.31655 23.8843
288 1.51181 4.01275 5.52455 11.0094 1.34507 0.0 0.200781 105.779 281.359 32.2901 3.2407 24.6495
289 1.46498 3.9517 5.41668 10.9002 1.2966 0.0 0.196238 103.555 279.074 31.0895 3.16708 25.4158
290 1.4195 3.8909 5.3104 10.7887 1.25036 0.0 0.191828 101.369 276.71 29.9466 3.09562 26.1833
291 1.37537 3.83041 5.20578 10.6746 1.20624 0.0 0.187545 99.2222 274.266 28.858 3.02625 26.9519
292 1.33257 3.77032 5.10289 10.5582 1.16411 0.0 0.183386 97.1162 271.74 27.8205 2.95889 27.7216
293 1.29108 3.71068 5.00176 10.4392 1.12387 0.0 0.179346 95.0514 269.132 26.8312 2.89346 28.4923
294 1.25089 3.65154 4.90244 10.3178 1.08542 0.0 0.175421 93.0284 266.439 25.8874 2.82991 29.264
295 1.21198 3.59298 4.80496 10.1938 1.04864 0.0 0.171607 91.0474 263.662 24.9865 2.76817 30.0367
296 1.17433 3.53502 4.70935 10.0674 1.01347 0.0 0.167901 89.1088 260.799 24.126 2.70818 30.8103
297 1.13791 3.47773 4.61563 9.93851 0.979803 0.0 0.164298 87.2127 257.849 23.3039 2.64987 31.5847
298 1.10269 3.42113 4.52382 9.80719 0.947568 0.0 0.160796 85.3591 254.814 22.5178 2.59319 32.36
299 1.06865 3.36526 4.43391 9.67345 0.916689 0.0 0.15739 83.5479 251.693 21.7659 2.53809 33.1361
300 1.03576 3.31015 4.34592 9.53736 0.887096 0.0 0.154078 81.7789 248.486 21.0464 2.48451 33.9133
301 1.00399 3.25584 4.25983 9.39896 0.858723 0.0 0.150857 80.0518 245.195 20.3575 2.43241 34.691
302 0.973315 3.20233 4.17564 9.25834 0.831508 0.0 0.147724 78.3662 241.82 19.6976 2.38173 35.4686
303 0.943696 3.14964 4.09334 9.11559 0.805392 0.0 0.144675 76.7216 238.365 19.0652 2.33242 36.2463
304 0.915105 3.0978 4.01291 8.9708 0.780322 0.0 0.141708 75.1175 234.83 18.4588 2.28445 37.0239
305 0.88751 3.04681 3.93432 8.8241 0.756245 0.0 0.13882 73.5532 231.22 17.8772 2.23777 37.8016
306 0.860882 2.99669 3.85757 8.67564 0.733113 0.0 0.13601 72.0282 227.538 17.3191 2.19233 38.5793
307 0.835187 2.94742 3.78261 8.52556 0.71088 0.0 0.133274 70.5416 223.787 16.7834 2.1481 39.3572
308 0.810396 2.89903 3.70943 8.37404 0.689504 0.0 0.130609 69.0928 219.973 16.2688 2.10504 40.1352
309 0.786478 2.8515 3.63798 8.22127 0.668944 0.0 0.128015 67.681 216.101 15.7744 2.06311 40.9133
310 0.763402 2.80485 3.56825 8.06745 0.649162 0.0 0.125488 66.3054 212.176 15.2992 2.02227 41.6916
311 0.741138 2.75905 3.50019 7.91281 0.630121 0.0 0.123026 64.9652 208.206 14.8423 1.9825 42.47
312 0.719658 2.71412 3.43378 7.75758 0.611788 0.0 0.120627 63.6596 204.196 14.4028 1.94375 43.2486
313 0.698934 2.67003 3.36897 7.60199 0.59413 0.0 0.11829 62.3877 200.155 13.9799 1.906 44.0274
314 0.678936 2.62679 3.30573 7.44631 0.577117 0.0 0.116013 61.1486 196.09 13.5729 1.86921 44.8064
315 0.659639 2.58439 3.24403 7.2908 0.56072 0.0 0.113793 59.9416 192.009 13.1809 1.83335 45.5856
316 0.641016 2.54281 3.18382 7.1357 0.544912 0.0 0.111629 58.7658 187.92 12.8033 1.79841 46.3649
317 0.623042 2.50204 3.12508 6.98128 0.529667 0.0 0.109519 57.6204 183.831 12.4395 1.76434 47.1444
318 0.605691 2.46208 3.06777 6.82779 0.51496 0.0 0.107462 56.5045 179.751 12.0888 1.73112 47.9241
319 0.588941 2.4229 3.01184 6.67549 0.500769 0.0 0.105456 55.4173 175.688 11.7507 1.69873 48.7039
320 0.572768 2.3845 2.95727 6.52462 0.487071 0.0 0.103499 54.3581 171.649 11.4246 1.66714 49.4839
321 0.557149 2.34687 2.90402 6.3754 0.473845 0.0 0.10159 53.326 167.642 11.11 1.63632 50.264
322 0.542065 2.30998 2.85205 6.22804 0.461072 0.0 0.099728 52.3202 163.674 10.8063 1.60626 51.0443
323 0.527493 2.27384 2.80133 6.08274 0.448733 0.0 0.0979109 51.3401 159.753 10.5132 1.57693 51.8248
324 0.513414 2.23841 2.75182 5.93968 0.43681 0.0 0.0961377 50.3848 155.883 10.2302 1.54832 52.6054
325 0.499809 2.20369 2.7035 5.79902 0.425286 0.0 0.094407 49.4536 152.072 9.95676 1.52039 53.3861
326 0.486659 2.16967 2.65633 5.6609 0.414145 0.0 0.0927177 48.5459 148.323 9.69262 1.49312 54.167
327 0.473947 2.13633 2.61028 5.52545 0.40337 0.0 0.0910684 47.6609 144.641 9.43735 1.46651 54.948
328 0.461657 2.10365 2.56531 5.39275 0.392949 0.0 0.0894582 46.798 141.031 9.19058 1.44053 55.7292
329 0.449771 2.07163 2.5214 5.26289 0.382866 0.0 0.0878858 45.9564 137.494 8.95198 1.41516 56.5105
330 0.438274 2.04025 2.47852 5.13595 0.373109 0.0 0.0863502 45.1357 134.035 8.72121 1.39039 57.2919
331 0.427151 2.00949 2.43664 5.01195 0.363664 0.0 0.0848503 44.3351 130.654 8.49797 1.3662 58.0735
332 0.416389 1.97934 2.39573 4.89094 0.35452 0.0 0.0833852 43.5541 127.354 8.28194 1.34256 58.8553
333 0.405972 1.94979 2.35576 4.77292 0.345665 0.0 0.0819538 42.7921 124.135 8.07286 1.31948 59.6372
334 0.395888 1.92083 2.31671 4.65791 0.337088 0.0 0.0805552 42.0485 120.998 7.87044 1.29692 60.4193
335 0.386125 1.89243 2.27856 4.54589 0.328779 0.0 0.0791885 41.3228 117.943 7.67444 1.27488 61.2015
336 0.37667 1.8646 2.24127 4.43683 0.320727 0.0 0.0778528 40.6144 114.971 7.4846 1.25334 61.984
337 0.367511 1.83731 2.20482 4.33072 0.312923 0.0 0.0765472 39.9229 112.079 7.30069 1.23228 62.7668
338 0.358638 1.81056 2.16919 4.22751 0.305358 0.0 0.075271 39.2477 109.269 7.12249 1.2117 63.5498
339 0.35004 1.78432 2.13436 4.12715 0.298022 0.0 0.0740233 38.5884 106.538 6.94978 1.19159 64.333
340 0.341706 1.7586 2.10031 4.02961 0.290908 0.0 0.0728033 37.9446 103.886 6.78236 1.17192 65.1166
341 0.333628 1.73338 2.06701 3.93481 0.284008 0.0 0.0716103 37.3156 101.311 6.62003 1.15268 65.9004
342 0.325795 1.70864 2.03444 3.8427 0.277313 0.0 0.0704436 36.7013 98.8114 6.4626 1.13387 66.6847
343 0.318198 1.68438 2.00258 3.75323 0.270816 0.0 0.0693025 36.101 96.3857 6.30991 1.11548 67.4693
344 0.310829 1.66059 1.97142 3.66631 0.264511 0.0 0.0681862 35.5144 94.0322 6.16177 1.09748 68.2544
345 0.30368 1.63725 1.94093 3.5819 0.258391 0.0 0.0670941 34.9411 91.7491 6.01802 1.07988 69.0399
346 0.296743 1.61435 1.9111 3.49991 0.252449 0.0 0.0660256 34.3808 89.5344 5.8785 1.06266 69.826
347 0.29001 1.59189 1.8819 3.42029 0.246678 0.0 0.0649801 33.833 87.3863 5.74307 1.04581 70.6126
348 0.283473 1.56985 1.85333 3.34297 0.241074 0.0 0.0639569 33.2975 85.3029 5.61158 1.02932 71.3998
349 0.277127 1.54823 1.82536 3.26787 0.23563 0.0 0.0629554 32.7738 83.2823 5.48389 1.01318 72.1876
350 0.270964 1.52701 1.79798 3.19493 0.23034 0.0 0.0619752 32.2616 81.3225 5.35987 0.997382 72.9762
351 0.264978 1.50619 1.77117 3.12409 0.2252 0.0 0.0610156 31.7607 79.4217 5.2394 0.981919 73.7655
352 0.259162 1.48575 1.74492 3.05528 0.220204 0.0 0.0600762 31.2707 77.5779 5.12235 0.96678 74.5556
353 0.253512 1.4657 1.71921 2.98843 0.215348 0.0 0.0591563 30.7912 75.7894 5.0086 0.951959 75.3466
354 0.24802 1.44601 1.69403 2.92348 0.210627 0.0 0.0582555 30.3221 74.0544 4.89804 0.937445 76.1385
355 0.242682 1.42668 1.66937 2.86037 0.206036 0.0 0.0573734 29.8631 72.3711 4.79057 0.923232 76.9314
356 0.237492 1.40771 1.6452 2.79905 0.201571 0.0 0.0565094 29.4138 70.7377 4.68608 0.909312 77.7253
357 0.232446 1.38908 1.62153 2.73945 0.197229 0.0 0.0556631 28.9739 69.1526 4.58448 0.895678 78.5203
358 0.227538 1.37079 1.59833 2.68151 0.193004 0.0 0.054834 28.5434 67.6141 4.48566 0.882321 79.3165
359 0.222765 1.35283 1.5756 2.62519 0.188893 0.0 0.0540218 28.1218 66.1208 4.38953 0.869236 80.114
360 0.218121 1.3352 1.55332 2.57043 0.184893 0.0 0.0532259 27.709 64.6709 4.29601 0.856416 80.9127
361 0.213602 1.31788 1.53148 2.51717 0.181 0.0 0.0524461 27.3047 63.2631 4.20502 0.843854 81.7128
362 0.209204 1.30086 1.51007 2.46538 0.17721 0.0 0.0516818 26.9087 61.8959 4.11646 0.831543 82.5143
363 0.204923 1.28415 1.48907 2.41499 0.17352 0.0 0.0509327 26.5208 60.568 4.03027 0.819478 83.3173
364 0.200756 1.26774 1.46849 2.36597 0.169928 0.0 0.0501985 26.1408 59.2779 3.94636 0.807652 84.1218
365 0.196698 1.25161 1.44831 2.31826 0.166429 0.0 0.0494788 25.7685 58.0243 3.86467 0.79606 84.928
366 0.192747 1.23577 1.42851 2.27184 0.163022 0.0 0.0487731 25.4036 56.8061 3.78512 0.784695 85.7359
367 0.188898 1.2202 1.4091 2.22664 0.159702 0.0 0.0480813 25.046 55.622 3.70765 0.773554 86.5454
368 0.185149 1.2049 1.39005 2.18264 0.156469 0.0 0.0474029 24.6955 54.4709 3.63219 0.762629 87.3568
369 0.181496 1.18987 1.37136 2.1398 0.153318 0.0 0.0467377 24.352 53.3516 3.55868 0.751916 88.1701
370 0.177936 1.17509 1.35303 2.09807 0.150247 0.0 0.0460853 24.0151 52.263 3.48705 0.741409 88.9853
371 0.174467 1.16057 1.33504 2.05742 0.147254 0.0 0.0454454 23.6849 51.2042 3.41726 0.731105 89.8024
372 0.171086 1.1463 1.31739 2.01782 0.144337 0.0 0.0448177 23.3611 50.1741 3.34924 0.720997 90.6215
373 0.16779 1.13227 1.30006 1.97924 0.141493 0.0 0.0442019 23.0435 49.1718 3.28294 0.711083 91.4427
374 0.164576 1.11848 1.28306 1.94163 0.13872 0.0 0.0435978 22.732 48.1962 3.21831 0.701356 92.2661
375 0.161441 1.10492 1.26636 1.90498 0.136017 0.0 0.0430051 22.4265 47.2467 3.1553 0.691812 93.0915
376 0.158384 1.09159 1.24997 1.86924 0.133379 0.0 0.0424235 22.1268 46.3222 3.09385 0.682448 93.9192
377 0.155403 1.07848 1.23388 1.8344 0.130807 0.0 0.0418528 21.8328 45.422 3.03393 0.673259 94.749
378 0.152494 1.06559 1.21809 1.80042 0.128298 0.0 0.0412926 21.5443 44.5452 2.97549 0.664241 95.5811
379 0.149655 1.05292 1.20257 1.76727 0.12585 0.0 0.0407429 21.2612 43.6911 2.91848 0.65539 96.4154
380 0.146886 1.04045 1.18733 1.73494 0.123461 0.0 0.0402032 20.9834 42.8591 2.86286 0.646702 97.252
381 0.144183 1.02819 1.17237 1.7034 0.12113 0.0 0.0396735 20.7107 42.0483 2.80859 0.638174 98.0908
382 0.141544 1.01613 1.15767 1.67261 0.118856 0.0 0.0391534 20.443 41.258 2.75563 0.629802 98.932
383 0.138968 1.00426 1.14323 1.64257 0.116635 0.0 0.0386428 20.1802 40.4877 2.70395 0.621582 99.7753
384 0.136453 0.992592 1.12905 1.61324 0.114467 0.0 0.0381415 19.9223 39.7367 2.65351 0.613511 100.621
385 0.133997 0.98111 1.11511 1.58461 0.112351 0.0 0.0376491 19.669 39.0044 2.60426 0.605586 101.469
386 0.131599 0.969813 1.10141 1.55665 0.110284 0.0 0.0371656 19.4203 38.2902 2.55619 0.597803 102.319
387 0.129256 0.958698 1.08795 1.52934 0.108266 0.0 0.0366908 19.176 37.5936 2.50924 0.59016 103.171
388 0.126968 0.94776 1.07473 1.50268 0.106295 0.0 0.0362244 18.9361 36.9139 2.4634 0.582652 104.025
389 0.124732 0.936997 1.06173 1.47663 0.10437 0.0 0.0357662 18.7005 36.2508 2.41863 0.575278 104.881
390 0.122547 0.926404 1.04895 1.45117 0.102489 0.0 0.0353161 18.4691 35.6036 2.3749 0.568034 105.739
391 0.120413 0.915978 1.03639 1.4263 0.100652 0.0 0.034874 18.2417 34.9719 2.33219 0.560917 106.599
392 0.118326 0.905717 1.02404 1.402 0.0988566 0.0 0.0344396 18.0183 34.3553 2.29045 0.553925 107.461
393 0.116287 0.895617 1.0119 1.37824 0.0971023 0.0 0.0340127 17.7988 33.7532 2.24968 0.547055 108.324
394 0.114293 0.885674 0.999967 1.35502 0.0953878 0.0 0.0335932 17.5832 33.1653 2.20983 0.540304 109.189
395 0.112344 0.875886 0.98823 1.33232 0.0937121 0.0 0.033181 17.3712 32.5911 2.17089 0.53367 110.055
396 0.110438 0.866249 0.976688 1.31012 0.0920741 0.0 0.0327758 17.1629 32.0302 2.13283 0.52715 110.922
397 0.108575 0.856762 0.965336 1.28841 0.0904727 0.0 0.0323776 16.9582 31.4823 2.09562 0.520741 111.79
398 0.106752 0.84742 0.954172 1.26717 0.0889071 0.0 0.0319862 16.7569 30.9469 2.05925 0.514442 112.659
399 0.104969 0.838221 0.94319 1.2464 0.0873762 0.0 0.0316014 16.559 30.4238 2.02369 0.50825 113.529
    400 0.103225 0.829162 0.932388 1.22608 0.0858791 0.0 0.0312232 16.3645 29.9124 1.98892 0.502163 114.399